Wavelength	Optical power
nm	dBm
940.1	-69.01
940.125	-69.13
940.15	-69.2
940.175	-69.04
940.2	-69.1
940.225	-69.01
940.25	-68.86
940.275	-68.89
940.3	-69.13
940.325	-69.39
940.35	-69.63
940.375	-69.58
940.4	-69.52
940.425	-69.48
940.45	-69.76
940.475	-69.28
940.5	-68.98
940.525	-69.07
940.55	-69.02
940.575	-69.03
940.6	-68.96
940.625	-68.96
940.65	-68.94
940.675	-68.82
940.7	-68.59
940.725	-68.91
940.75	-68.94
940.775	-69.29
940.8	-69.17
940.825	-69.27
940.85	-69.37
940.875	-69.4
940.9	-68.94
940.925	-68.91
940.95	-68.62
940.975	-68.41
941	-68.45
941.025	-68.51
941.05	-68.64
941.075	-69.06
941.1	-68.88
941.125	-68.93
941.15	-69.14
941.175	-68.96
941.2	-68.97
941.225	-68.89
941.25	-68.77
941.275	-69.01
941.3	-69.05
941.325	-68.75
941.35	-68.9
941.375	-68.83
941.4	-68.89
941.425	-68.65
941.45	-68.5
941.475	-68.56
941.5	-68.91
941.525	-69.19
941.55	-69.27
941.575	-69.21
941.6	-69.05
941.625	-69.17
941.65	-69.1
941.675	-68.89
941.7	-68.75
941.725	-68.77
941.75	-69.01
941.775	-69
941.8	-68.77
941.825	-68.65
941.85	-68.66
941.875	-68.43
941.9	-68.33
941.925	-68.1
941.95	-68.35
941.975	-68.43
942	-68.76
942.025	-68.79
942.05	-68.98
942.075	-68.83
942.1	-68.89
942.125	-68.86
942.15	-69
942.175	-68.7
942.2	-68.5
942.225	-68.43
942.25	-68.72
942.275	-68.81
942.3	-68.79
942.325	-68.67
942.35	-68.81
942.375	-68.84
942.4	-68.81
942.425	-68.38
942.45	-68.14
942.475	-67.98
942.5	-68.12
942.525	-68.21
942.55	-68.36
942.575	-68.41
942.6	-68.67
942.625	-68.74
942.65	-69.02
942.675	-68.97
942.7	-68.79
942.725	-68.7
942.75	-68.49
942.775	-68.53
942.8	-68.76
942.825	-68.73
942.85	-68.83
942.875	-68.84
942.9	-68.82
942.925	-69.04
942.95	-69
942.975	-68.66
943	-68.77
943.025	-68.42
943.05	-68.53
943.075	-68.79
943.1	-68.87
943.125	-69.14
943.15	-69.23
943.175	-69.09
943.2	-69.31
943.225	-69.21
943.25	-69.27
943.275	-69.33
943.3	-69.09
943.325	-69.17
943.35	-68.95
943.375	-69.04
943.4	-69.06
943.425	-68.59
943.45	-68.38
943.475	-68.32
943.5	-68.16
943.525	-68.29
943.55	-68.25
943.575	-68.14
943.6	-68.15
943.625	-68.02
943.65	-68.12
943.675	-68.04
943.7	-68.04
943.725	-67.9
943.75	-67.91
943.775	-68.05
943.8	-68.18
943.825	-68.31
943.85	-68.61
943.875	-68.55
943.9	-68.63
943.925	-68.64
943.95	-68.6
943.975	-68.63
944	-68.39
944.025	-68.2
944.05	-68.2
944.075	-68.18
944.1	-68.07
944.125	-68.32
944.15	-68.07
944.175	-67.83
944.2	-67.9
944.225	-67.76
944.25	-67.69
944.275	-67.75
944.3	-67.37
944.325	-67.37
944.35	-67.5
944.375	-67.42
944.4	-67.43
944.425	-67.46
944.45	-67.19
944.475	-67.2
944.5	-67.12
944.525	-67.04
944.55	-66.93
944.575	-66.81
944.6	-66.78
944.625	-66.76
944.65	-66.74
944.675	-66.7
944.7	-66.61
944.725	-66.62
944.75	-66.61
944.775	-66.51
944.8	-66.57
944.825	-66.58
944.85	-66.54
944.875	-66.44
944.9	-66.46
944.925	-66.51
944.95	-66.58
944.975	-66.7
945	-66.61
945.025	-66.71
945.05	-66.86
945.075	-66.75
945.1	-66.74
945.125	-66.73
945.15	-66.65
945.175	-66.78
945.2	-66.79
945.225	-66.96
945.25	-67.15
945.275	-67.16
945.3	-67.1
945.325	-67.19
945.35	-67.19
945.375	-67.2
945.4	-66.88
945.425	-66.76
945.45	-66.78
945.475	-66.79
945.5	-66.69
945.525	-66.64
945.55	-66.45
945.575	-66.51
945.6	-66.4
945.625	-66.31
945.65	-66.14
945.675	-66.11
945.7	-66.02
945.725	-66.13
945.75	-66.21
945.775	-66.32
945.8	-66.35
945.825	-66.46
945.85	-66.38
945.875	-66.49
945.9	-66.28
945.925	-66.15
945.95	-66.04
945.975	-66.02
946	-66.01
946.025	-66.14
946.05	-65.98
946.075	-66.12
946.1	-66.19
946.125	-66.14
946.15	-66.2
946.175	-66.16
946.2	-66.15
946.225	-66.21
946.25	-66.25
946.275	-66.16
946.3	-66.2
946.325	-66.13
946.35	-66.06
946.375	-65.85
946.4	-65.84
946.425	-65.77
946.45	-65.74
946.475	-65.72
946.5	-65.58
946.525	-65.61
946.55	-65.66
946.575	-65.52
946.6	-65.42
946.625	-65.38
946.65	-65.42
946.675	-65.48
946.7	-65.54
946.725	-65.54
946.75	-65.72
946.775	-65.93
946.8	-66.06
946.825	-66.12
946.85	-66.18
946.875	-66.25
946.9	-66.25
946.925	-66.23
946.95	-66.03
946.975	-66
947	-65.88
947.025	-65.89
947.05	-65.85
947.075	-65.81
947.1	-65.91
947.125	-66.03
947.15	-66.07
947.175	-66.26
947.2	-66.21
947.225	-66.22
947.25	-66.26
947.275	-66.09
947.3	-66.04
947.325	-66.15
947.35	-66.02
947.375	-66.06
947.4	-65.92
947.425	-66.02
947.45	-66.04
947.475	-66
947.5	-65.77
947.525	-65.71
947.55	-65.67
947.575	-65.8
947.6	-65.67
947.625	-65.67
947.65	-65.63
947.675	-65.73
947.7	-65.73
947.725	-65.75
947.75	-65.72
947.775	-65.76
947.8	-65.63
947.825	-65.77
947.85	-65.75
947.875	-65.84
947.9	-65.8
947.925	-65.72
947.95	-65.77
947.975	-65.9
948	-65.74
948.025	-65.78
948.05	-65.76
948.075	-65.75
948.1	-65.68
948.125	-65.63
948.15	-65.59
948.175	-65.5
948.2	-65.43
948.225	-65.36
948.25	-65.31
948.275	-65.35
948.3	-65.22
948.325	-65.15
948.35	-65.28
948.375	-65.24
948.4	-65.26
948.425	-65.26
948.45	-65.22
948.475	-65.35
948.5	-65.33
948.525	-65.25
948.55	-65.32
948.575	-65.3
948.6	-65.25
948.625	-65.32
948.65	-65.31
948.675	-65.35
948.7	-65.29
948.725	-65.2
948.75	-65.17
948.775	-65.22
948.8	-65.17
948.825	-65.14
948.85	-65.15
948.875	-65.23
948.9	-65.26
948.925	-65.28
948.95	-65.24
948.975	-65.23
949	-65.13
949.025	-65.07
949.05	-64.92
949.075	-64.74
949.1	-64.57
949.125	-64.4
949.15	-64.21
949.175	-64.08
949.2	-63.98
949.225	-63.95
949.25	-63.99
949.275	-63.93
949.3	-63.86
949.325	-63.83
949.35	-63.84
949.375	-63.79
949.4	-63.75
949.425	-63.62
949.45	-63.61
949.475	-63.67
949.5	-63.68
949.525	-63.63
949.55	-63.57
949.575	-63.49
949.6	-63.49
949.625	-63.46
949.65	-63.4
949.675	-63.34
949.7	-63.29
949.725	-63.28
949.75	-63.25
949.775	-63.25
949.8	-63.23
949.825	-63.21
949.85	-63.26
949.875	-63.22
949.9	-63.17
949.925	-63.17
949.95	-63.1
949.975	-63.1
950	-63.06
950.025	-63.04
950.05	-63.09
950.075	-63.13
950.1	-63.14
950.125	-63.22
950.15	-63.12
950.175	-63.14
950.2	-63.12
950.225	-63.06
950.25	-62.99
950.275	-62.97
950.3	-62.84
950.325	-62.86
950.35	-62.82
950.375	-62.71
950.4	-62.61
950.425	-62.49
950.45	-62.41
950.475	-62.35
950.5	-62.2
950.525	-62.13
950.55	-62.07
950.575	-62.07
950.6	-62.06
950.625	-62.01
950.65	-61.97
950.675	-61.98
950.7	-61.94
950.725	-61.96
950.75	-61.99
950.775	-62.02
950.8	-62.11
950.825	-62.18
950.85	-62.28
950.875	-62.36
950.9	-62.41
950.925	-62.46
950.95	-62.54
950.975	-62.54
951	-62.64
951.025	-62.64
951.05	-62.68
951.075	-62.68
951.1	-62.63
951.125	-62.55
951.15	-62.53
951.175	-62.42
951.2	-62.39
951.225	-62.31
951.25	-62.29
951.275	-62.24
951.3	-62.2
951.325	-62.16
951.35	-62.11
951.375	-62
951.4	-61.96
951.425	-61.83
951.45	-61.71
951.475	-61.58
951.5	-61.43
951.525	-61.25
951.55	-61.1
951.575	-60.92
951.6	-60.78
951.625	-60.66
951.65	-60.53
951.675	-60.38
951.7	-60.29
951.725	-60.21
951.75	-60.12
951.775	-60.05
951.8	-59.93
951.825	-59.86
951.85	-59.78
951.875	-59.72
951.9	-59.71
951.925	-59.71
951.95	-59.69
951.975	-59.7
952	-59.64
952.025	-59.58
952.05	-59.5
952.075	-59.37
952.1	-59.2
952.125	-59.07
952.15	-58.91
952.175	-58.75
952.2	-58.59
952.225	-58.43
952.25	-58.24
952.275	-58.02
952.3	-57.86
952.325	-57.77
952.35	-57.74
952.375	-57.7
952.4	-57.69
952.425	-57.7
952.45	-57.68
952.475	-57.55
952.5	-57.45
952.525	-57.41
952.55	-57.39
952.575	-57.32
952.6	-57.24
952.625	-57.26
952.65	-57.39
952.675	-57.45
952.7	-57.36
952.725	-57.22
952.75	-57.1
952.775	-57.04
952.8	-56.95
952.825	-56.7
952.85	-56.47
952.875	-56.27
952.9	-56.15
952.925	-56
952.95	-55.79
952.975	-55.59
953	-55.45
953.025	-55.3
953.05	-55.08
953.075	-54.81
953.1	-54.51
953.125	-54.28
953.15	-54.11
953.175	-53.95
953.2	-53.83
953.225	-53.77
953.25	-53.72
953.275	-53.69
953.3	-53.67
953.325	-53.63
953.35	-53.59
953.375	-53.48
953.4	-53.34
953.425	-53.22
953.45	-53.17
953.475	-53.08
953.5	-52.89
953.525	-52.65
953.55	-52.43
953.575	-52.25
953.6	-52.08
953.625	-51.83
953.65	-51.52
953.675	-51.19
953.7	-50.71
953.725	-49.8
953.75	-47.52
953.775	-41.99
953.8	-36.85
953.825	-32.21
953.85	-30
953.875	-29.27
953.9	-29.22
953.925	-29.22
953.95	-29.33
953.975	-29.57
954	-30.98
954.025	-33.59
954.05	-35.74
954.075	-35.97
954.1	-36.03
954.125	-36.3
954.15	-38.04
954.175	-41.44
954.2	-44.6
954.225	-45.82
954.25	-46.1
954.275	-45.93
954.3	-45.61
954.325	-44.99
954.35	-43.79
954.375	-40.04
954.4	-33.4
954.425	-29.95
954.45	-28.39
954.475	-27.35
954.5	-26.61
954.525	-26.15
954.55	-25.89
954.575	-26.38
954.6	-27.54
954.625	-28.77
954.65	-30.3
954.675	-32.28
954.7	-34.64
954.725	-37.59
954.75	-36.85
954.775	-33.87
954.8	-31.81
954.825	-30.86
954.85	-29.99
954.875	-28.66
954.9	-28.61
954.925	-28.98
954.95	-29.76
954.975	-30.88
955	-31.64
955.025	-32.45
955.05	-35.86
955.075	-36.47
955.1	-36.38
955.125	-36.39
955.15	-36.33
955.175	-36.09
955.2	-36.14
955.225	-34.51
955.25	-33.24
955.275	-32.87
955.3	-32.72
955.325	-32.72
955.35	-32.91
955.375	-32.74
955.4	-30.74
955.425	-29.16
955.45	-28.56
955.475	-28.34
955.5	-27.99
955.525	-27.51
955.55	-27.18
955.575	-27.86
955.6	-28.81
955.625	-29.33
955.65	-29.54
955.675	-29.93
955.7	-30.66
955.725	-31.76
955.75	-33.15
955.775	-34.97
955.8	-35.3
955.825	-34.83
955.85	-33.91
955.875	-31.71
955.9	-29.76
955.925	-28.07
955.95	-26.96
955.975	-26.37
956	-25.98
956.025	-25.92
956.05	-26.36
956.075	-26.56
956.1	-26.58
956.125	-26.37
956.15	-26.02
956.175	-25.85
956.2	-25.76
956.225	-25.66
956.25	-25.84
956.275	-26.48
956.3	-27.46
956.325	-28.19
956.35	-28.34
956.375	-28.05
956.4	-27.7
956.425	-27.68
956.45	-27.64
956.475	-27.26
956.5	-27.11
956.525	-27.38
956.55	-27.85
956.575	-28.17
956.6	-27.2
956.625	-26.2
956.65	-25.87
956.675	-25.82
956.7	-25.71
956.725	-24.98
956.75	-24.13
956.775	-23.93
956.8	-24.21
956.825	-24.23
956.85	-23.91
956.875	-23.28
956.9	-22.99
956.925	-23.18
956.95	-23.57
956.975	-23.4
957	-23.12
957.025	-23.25
957.05	-23.82
957.075	-24.48
957.1	-24.62
957.125	-24.4
957.15	-24.49
957.175	-24.71
957.2	-24.7
957.225	-24.49
957.25	-23.96
957.275	-23.35
957.3	-23.1
957.325	-23.35
957.35	-23.28
957.375	-23.04
957.4	-23.17
957.425	-23.66
957.45	-24.63
957.475	-25.69
957.5	-25.91
957.525	-26.77
957.55	-28.08
957.575	-28.23
957.6	-27.89
957.625	-27.63
957.65	-27.4
957.675	-27.49
957.7	-27.8
957.725	-28.34
957.75	-29.24
957.775	-31.15
957.8	-33.81
957.825	-35.95
957.85	-37.16
957.875	-38.27
957.9	-39.48
957.925	-36.21
957.95	-31.84
957.975	-29.6
958	-29.27
958.025	-29.25
958.05	-29.31
958.075	-29.42
958.1	-30.05
958.125	-32.45
958.15	-39.1
958.175	-44.86
958.2	-47.14
958.225	-50.56
958.25	-51.72
958.275	-52.22
958.3	-52.57
958.325	-52.84
958.35	-53.13
958.375	-53.46
958.4	-53.86
958.425	-54.3
958.45	-53.75
958.475	-52.47
958.5	-49.61
958.525	-46.76
958.55	-40.87
958.575	-33.22
958.6	-30.74
958.625	-30.29
958.65	-30.28
958.675	-30.29
958.7	-30.34
958.725	-30.64
958.75	-33.29
958.775	-39.89
958.8	-50.59
958.825	-54.55
958.85	-57.4
958.875	-59.29
958.9	-59.63
958.925	-59.58
958.95	-59.65
958.975	-59.88
959	-60.1
959.025	-60.41
959.05	-60.81
959.075	-61.17
959.1	-61.63
959.125	-61.96
959.15	-62.2
959.175	-62.48
959.2	-62.66
959.225	-62.73
959.25	-62.84
959.275	-62.92
959.3	-62.97
959.325	-63.03
959.35	-63.04
959.375	-63.06
959.4	-63.11
959.425	-63.08
959.45	-63.08
959.475	-63.07
959.5	-63
959.525	-62.99
959.55	-63.08
959.575	-63.16
959.6	-63.2
959.625	-63.25
959.65	-63.34
959.675	-63.42
959.7	-63.53
959.725	-63.52
959.75	-63.49
959.775	-63.56
959.8	-63.6
959.825	-63.65
959.85	-63.59
959.875	-63.53
959.9	-63.53
959.925	-63.52
959.95	-63.47
959.975	-63.48
960	-63.46
960.025	-63.69
960.05	-63.74
960.075	-63.91
960.1	-64.04
960.125	-64.19
960.15	-64.33
960.175	-64.52
960.2	-64.51
960.225	-64.74
960.25	-64.91
960.275	-65.13
960.3	-65.32
960.325	-65.49
960.35	-65.57
960.375	-65.72
960.4	-65.74
960.425	-65.77
960.45	-65.74
960.475	-65.69
960.5	-65.73
960.525	-65.75
960.55	-65.74
960.575	-65.76
960.6	-65.78
960.625	-65.9
960.65	-66
960.675	-65.95
960.7	-65.97
960.725	-65.89
960.75	-66.01
960.775	-66.08
960.8	-66.1
960.825	-66.27
960.85	-66.42
960.875	-66.58
960.9	-66.87
960.925	-66.83
960.95	-66.94
960.975	-66.94
961	-67.07
961.025	-67.2
961.05	-67.13
961.075	-67.15
961.1	-67.3
961.125	-67.27
961.15	-67.37
961.175	-67.38
961.2	-67.4
961.225	-67.61
961.25	-67.86
961.275	-67.9
961.3	-67.9
961.325	-67.92
961.35	-67.77
961.375	-67.76
961.4	-67.65
961.425	-67.4
961.45	-67.54
961.475	-67.69
961.5	-67.79
961.525	-67.86
961.55	-67.87
961.575	-68.05
961.6	-68.16
961.625	-68.11
961.65	-68.16
961.675	-68.15
961.7	-68.24
961.725	-68.36
961.75	-68.27
961.775	-68.36
961.8	-68.38
961.825	-68.46
961.85	-68.36
961.875	-68.48
961.9	-68.69
961.925	-68.85
961.95	-69.02
961.975	-69.3
962	-69.33
962.025	-69.5
962.05	-69.56
962.075	-69.37
962.1	-69.52
962.125	-69.61
962.15	-69.59
962.175	-69.58
962.2	-69.96
962.225	-70.02
962.25	-70.55
962.275	-70.39
962.3	-70.35
962.325	-70.07
962.35	-70.36
962.375	-70.09
962.4	-70.1
962.425	-69.8
962.45	-70.05
962.475	-70.1
962.5	-70.4
962.525	-70.69
962.55	-70.97
962.575	-71.64
962.6	-71.74
962.625	-71.33
962.65	-71.46
962.675	-71.93
962.7	-71.53
962.725	-71.59
962.75	-71.31
962.775	-71.78
962.8	-72.8
962.825	-73.07
962.85	-72.38
962.875	-72.78
962.9	-73.29
962.925	-72.78
962.95	-73.01
962.975	-72.29
963	-71.75
963.025	-72.54
963.05	-72.62
963.075	-72.29
963.1	-72.73
963.125	-72.45
963.15	-72.62
963.175	-73.05
963.2	-72.18
963.225	-71.79
963.25	-71.99
963.275	-71.83
963.3	-71.43
963.325	-71.66
963.35	-72
963.375	-72.83
963.4	-72.89
963.425	-72.91
963.45	-73.09
963.475	-73.83
963.5	-73.52
963.525	-73.15
963.55	-72.53
963.575	-73.34
963.6	-73.42
963.625	-73.16
963.65	-72.66
963.675	-72.79
963.7	-73.27
963.725	-73.69
963.75	-72.78
963.775	-73.04
963.8	-73.13
963.825	-73.42
963.85	-73.56
963.875	-73.22
963.9	-73.03
963.925	-73.56
963.95	-73.44
963.975	-74.32
964	-73.91
964.025	-74.08
964.05	-74.67
964.075	-74.58
964.1	-74.54
964.125	-120
964.15	-75.01
964.175	-75.85
964.2	-76.12
964.225	-75.29
964.25	-75.85
964.275	-76.55
964.3	-75.75
964.325	-75.26
964.35	-74.98
964.375	-74.16
964.4	-74.24
964.425	-73.83
964.45	-73.4
964.475	-73.67
964.5	-73.86
964.525	-74.69
964.55	-75.38
964.575	-76.36
964.6	-77.43
964.625	-77.22
964.65	-80.62
964.675	-86.48
964.7	-77.14
964.725	-77.73
964.75	-76.91
964.775	-77.49
964.8	-81.27
964.825	-79.8
964.85	-92.42
964.875	-79.54
964.9	-83.61
964.925	-82.82
964.95	-80.52
964.975	-82.2
965	-84.05
965.025	-77.03
965.05	-78.13
965.075	-75.78
965.1	-75.92
