Wavelength	Optical power
nm	dBm
1521	-120
1521.07	-120
1521.14	-94.46
1521.21	-120
1521.28	-120
1521.35	-120
1521.42	-120
1521.49	-89.88
1521.56	-120
1521.63	-120
1521.7	-88.04
1521.77	-94.65
1521.84	-93.57
1521.91	-84.27
1521.98	-120
1522.05	-83.75
1522.12	-88.3
1522.19	-120
1522.26	-92.46
1522.33	-120
1522.4	-92.33
1522.47	-91.42
1522.54	-120
1522.61	-84.1
1522.68	-89.03
1522.75	-89.35
1522.82	-85.41
1522.89	-84.97
1522.96	-86.47
1523.03	-120
1523.1	-120
1523.17	-120
1523.24	-87.35
1523.31	-85.3
1523.38	-120
1523.45	-120
1523.52	-89.33
1523.59	-83.15
1523.66	-120
1523.73	-120
1523.8	-86.66
1523.87	-86.11
1523.94	-87.23
1524.01	-90.77
1524.08	-120
1524.15	-84.89
1524.22	-87.19
1524.29	-91.86
1524.36	-90.98
1524.43	-120
1524.5	-120
1524.57	-120
1524.64	-83.3
1524.71	-120
1524.78	-120
1524.85	-88.93
1524.92	-120
1524.99	-88.02
1525.06	-83.51
1525.13	-84.41
1525.2	-120
1525.27	-88.62
1525.34	-86.21
1525.41	-86.73
1525.48	-84.5
1525.55	-87.43
1525.62	-86.99
1525.69	-120
1525.76	-85.19
1525.83	-120
1525.9	-120
1525.97	-94.51
1526.04	-83.96
1526.11	-120
1526.18	-120
1526.25	-120
1526.32	-85.4
1526.39	-120
1526.46	-85.83
1526.53	-120
1526.6	-120
1526.67	-89.71
1526.74	-86.62
1526.81	-86.53
1526.88	-120
1526.95	-85.82
1527.02	-120
1527.09	-84.94
1527.16	-85.23
1527.23	-86.82
1527.3	-90.38
1527.37	-82.56
1527.44	-95.27
1527.51	-88.17
1527.58	-120
1527.65	-85.23
1527.72	-120
1527.79	-81.55
1527.86	-83.37
1527.93	-120
1528	-87.95
1528.07	-88.18
1528.14	-89.63
1528.21	-120
1528.28	-120
1528.35	-86.78
1528.42	-82.92
1528.49	-120
1528.56	-81.72
1528.63	-88.54
1528.7	-84.41
1528.77	-120
1528.84	-89.55
1528.91	-120
1528.98	-90.37
1529.05	-92.34
1529.12	-120
1529.19	-120
1529.26	-120
1529.33	-89.88
1529.4	-120
1529.47	-120
1529.54	-101.44
1529.61	-89.19
1529.68	-89.08
1529.75	-120
1529.82	-120
1529.89	-86.79
1529.96	-87.71
1530.03	-94.46
1530.1	-120
1530.17	-120
1530.24	-82.94
1530.31	-84.39
1530.38	-91.08
1530.45	-84.79
1530.52	-120
1530.59	-120
1530.66	-87.25
1530.73	-86.26
1530.8	-92.67
1530.87	-92.42
1530.94	-86.58
1531.01	-120
1531.08	-120
1531.15	-87.08
1531.22	-120
1531.29	-120
1531.36	-120
1531.43	-120
1531.5	-85.76
1531.57	-84.93
1531.64	-81.63
1531.71	-93.13
1531.78	-85.02
1531.85	-87.61
1531.92	-90.08
1531.99	-83.09
1532.06	-101.43
1532.13	-82.36
1532.2	-86.03
1532.27	-87.73
1532.34	-87.36
1532.41	-120
1532.48	-86.17
1532.55	-84.27
1532.62	-120
1532.69	-88.09
1532.76	-82.88
1532.83	-86.74
1532.9	-120
1532.97	-120
1533.04	-86.74
1533.11	-120
1533.18	-86.69
1533.25	-88.35
1533.32	-84.55
1533.39	-120
1533.46	-120
1533.53	-120
1533.6	-93.79
1533.67	-86.21
1533.74	-85.68
1533.81	-83.5
1533.88	-120
1533.95	-120
1534.02	-84.65
1534.09	-88.66
1534.16	-120
1534.23	-120
1534.3	-92.61
1534.37	-120
1534.44	-85.02
1534.51	-120
1534.58	-84.2
1534.65	-84.93
1534.72	-82.65
1534.79	-120
1534.86	-120
1534.93	-87.87
1535	-86.46
1535.07	-83.39
1535.14	-110.94
1535.21	-84.86
1535.28	-83.63
1535.35	-89.45
1535.42	-87.07
1535.49	-84.33
1535.56	-120
1535.63	-85.88
1535.7	-82.75
1535.77	-92.69
1535.84	-84.2
1535.91	-86.54
1535.98	-83.88
1536.05	-86
1536.12	-82.65
1536.19	-120
1536.26	-84.73
1536.33	-110.95
1536.4	-83.36
1536.47	-85.67
1536.54	-81.16
1536.61	-91.82
1536.68	-85.54
1536.75	-82.8
1536.82	-85.44
1536.89	-120
1536.96	-82.7
1537.03	-85.44
1537.1	-81.01
1537.17	-120
1537.24	-85.34
1537.31	-85.09
1537.38	-84.14
1537.45	-86.18
1537.52	-86.9
1537.59	-89.54
1537.66	-86.24
1537.73	-87.35
1537.8	-85.85
1537.87	-86.71
1537.94	-82.57
1538.01	-84.6
1538.08	-91.02
1538.15	-83.36
1538.22	-85.33
1538.29	-80.34
1538.36	-82.88
1538.43	-79.76
1538.5	-83.86
1538.57	-80.84
1538.64	-81.1
1538.71	-82.28
1538.78	-80.06
1538.85	-81.24
1538.92	-81.62
1538.99	-81.01
1539.06	-80.85
1539.13	-79.14
1539.2	-78.3
1539.27	-80.29
1539.34	-79.24
1539.41	-78.08
1539.48	-79.2
1539.55	-78.14
1539.62	-78.17
1539.69	-77.44
1539.76	-76.39
1539.83	-75.92
1539.9	-75.99
1539.97	-74.7
1540.04	-74.95
1540.11	-74.63
1540.18	-73.72
1540.25	-73.62
1540.32	-72.94
1540.39	-72.83
1540.46	-72.21
1540.53	-71.8
1540.6	-71.34
1540.67	-71.14
1540.74	-70.42
1540.81	-70.15
1540.88	-69.71
1540.95	-69.33
1541.02	-68.98
1541.09	-68.79
1541.16	-68.27
1541.23	-67.99
1541.3	-67.82
1541.37	-67.49
1541.44	-67.34
1541.51	-67.02
1541.58	-66.73
1541.65	-66.75
1541.72	-66.49
1541.79	-66.34
1541.86	-66.23
1541.93	-66.18
1542	-66.1
1542.07	-66.05
1542.14	-66.07
1542.21	-66.02
1542.28	-65.93
1542.35	-65.94
1542.42	-65.93
1542.49	-65.97
1542.56	-65.9
1542.63	-65.91
1542.7	-65.91
1542.77	-65.94
1542.84	-65.9
1542.91	-65.84
1542.98	-65.82
1543.05	-65.82
1543.12	-65.65
1543.19	-65.71
1543.26	-65.63
1543.33	-65.56
1543.4	-65.42
1543.47	-65.32
1543.54	-65.32
1543.61	-65.14
1543.68	-64.97
1543.75	-64.86
1543.82	-64.7
1543.89	-64.51
1543.96	-64.32
1544.03	-64.13
1544.1	-63.94
1544.17	-63.76
1544.24	-63.56
1544.31	-63.33
1544.38	-63.06
1544.45	-62.81
1544.52	-62.59
1544.59	-62.39
1544.66	-62.1
1544.73	-61.87
1544.8	-61.63
1544.87	-61.41
1544.94	-61.17
1545.01	-60.92
1545.08	-60.72
1545.15	-60.46
1545.22	-60.28
1545.29	-60.02
1545.36	-59.83
1545.43	-59.63
1545.5	-59.42
1545.57	-59.2
1545.64	-58.99
1545.71	-58.82
1545.78	-58.59
1545.85	-58.4
1545.92	-58.2
1545.99	-58.06
1546.06	-57.89
1546.13	-57.72
1546.2	-57.57
1546.27	-57.43
1546.34	-57.32
1546.41	-57.17
1546.48	-57.07
1546.55	-56.97
1546.62	-56.87
1546.69	-56.78
1546.76	-56.69
1546.83	-56.63
1546.9	-56.58
1546.97	-56.53
1547.04	-56.49
1547.11	-56.46
1547.18	-56.45
1547.25	-56.42
1547.32	-56.41
1547.39	-56.42
1547.46	-56.42
1547.53	-56.44
1547.6	-56.47
1547.67	-56.47
1547.74	-56.52
1547.81	-56.54
1547.88	-56.59
1547.95	-56.64
1548.02	-56.67
1548.09	-56.72
1548.16	-56.79
1548.23	-56.83
1548.3	-56.92
1548.37	-56.96
1548.44	-57.04
1548.51	-57.11
1548.58	-57.16
1548.65	-57.24
1548.72	-57.33
1548.79	-57.4
1548.86	-57.49
1548.93	-57.54
1549	-57.64
1549.07	-57.73
1549.14	-57.8
1549.21	-57.89
1549.28	-57.94
1549.35	-58.05
1549.42	-58.16
1549.49	-58.23
1549.56	-58.33
1549.63	-58.39
1549.7	-58.49
1549.77	-58.58
1549.84	-58.65
1549.91	-58.71
1549.98	-58.81
1550.05	-58.9
1550.12	-58.94
1550.19	-59.01
1550.26	-59.07
1550.33	-59.17
1550.4	-59.25
1550.47	-59.3
1550.54	-59.39
1550.61	-59.46
1550.68	-59.51
1550.75	-59.58
1550.82	-59.67
1550.89	-59.71
1550.96	-59.78
1551.03	-59.84
1551.1	-59.89
1551.17	-59.99
1551.24	-60
1551.31	-60.05
1551.38	-60.07
1551.45	-60.1
1551.52	-60.19
1551.59	-60.19
1551.66	-60.25
1551.73	-60.29
1551.8	-60.32
1551.87	-60.38
1551.94	-60.35
1552.01	-60.39
1552.08	-60.41
1552.15	-60.44
1552.22	-60.47
1552.29	-60.48
1552.36	-60.51
1552.43	-60.52
1552.5	-60.51
1552.57	-60.53
1552.64	-60.54
1552.71	-60.56
1552.78	-60.57
1552.85	-60.57
1552.92	-60.54
1552.99	-60.58
1553.06	-60.57
1553.13	-60.55
1553.2	-60.59
1553.27	-60.6
1553.34	-60.6
1553.41	-60.57
1553.48	-60.56
1553.55	-60.61
1553.62	-60.58
1553.69	-60.58
1553.76	-60.58
1553.83	-60.58
1553.9	-60.58
1553.97	-60.57
1554.04	-60.6
1554.11	-60.61
1554.18	-60.62
1554.25	-60.58
1554.32	-60.57
1554.39	-60.58
1554.46	-60.57
1554.53	-60.56
1554.6	-60.6
1554.67	-60.59
1554.74	-60.6
1554.81	-60.61
1554.88	-60.59
1554.95	-60.57
1555.02	-60.56
1555.09	-60.57
1555.16	-60.59
1555.23	-60.57
1555.3	-60.57
1555.37	-60.56
1555.44	-60.57
1555.51	-60.56
1555.58	-60.54
1555.65	-60.56
1555.72	-60.56
1555.79	-60.51
1555.86	-60.53
1555.93	-60.54
1556	-60.51
1556.07	-60.55
1556.14	-60.54
1556.21	-60.54
1556.28	-60.51
1556.35	-60.51
1556.42	-60.55
1556.49	-60.49
1556.56	-60.49
1556.63	-60.49
1556.7	-60.45
1556.77	-60.44
1556.84	-60.41
1556.91	-60.43
1556.98	-60.42
1557.05	-60.41
1557.12	-60.42
1557.19	-60.39
1557.26	-60.32
1557.33	-60.34
1557.4	-60.32
1557.47	-60.33
1557.54	-60.3
1557.61	-60.31
1557.68	-60.27
1557.75	-60.26
1557.82	-60.22
1557.89	-60.25
1557.96	-60.23
1558.03	-60.2
1558.1	-60.18
1558.17	-60.15
1558.24	-60.12
1558.31	-60.12
1558.38	-60.1
1558.45	-60.05
1558.52	-60.03
1558.59	-60.04
1558.66	-59.99
1558.73	-60
1558.8	-59.97
1558.87	-59.92
1558.94	-59.92
1559.01	-59.93
1559.08	-59.91
1559.15	-59.92
1559.22	-59.89
1559.29	-59.88
1559.36	-59.88
1559.43	-59.85
1559.5	-59.84
1559.57	-59.85
1559.64	-59.89
1559.71	-59.9
1559.78	-59.91
1559.85	-59.91
1559.92	-59.94
1559.99	-59.93
1560.06	-59.97
1560.13	-59.95
1560.2	-60
1560.27	-60.02
1560.34	-60.07
1560.41	-60.09
1560.48	-60.08
1560.55	-60.12
1560.62	-60.18
1560.69	-60.17
1560.76	-60.24
1560.83	-60.27
1560.9	-60.3
1560.97	-60.33
1561.04	-60.39
1561.11	-60.42
1561.18	-60.48
1561.25	-60.5
1561.32	-60.57
1561.39	-60.61
1561.46	-60.66
1561.53	-60.71
1561.6	-60.75
1561.67	-60.83
1561.74	-60.86
1561.81	-60.91
1561.88	-60.98
1561.95	-61.07
1562.02	-61.1
1562.09	-61.12
1562.16	-61.21
1562.23	-61.3
1562.3	-61.34
1562.37	-61.41
1562.44	-61.49
1562.51	-61.56
1562.58	-61.63
1562.65	-61.72
1562.72	-61.78
1562.79	-61.86
1562.86	-61.91
1562.93	-62
1563	-62.1
1563.07	-62.21
1563.14	-62.28
1563.21	-62.37
1563.28	-62.49
1563.35	-62.62
1563.42	-62.72
1563.49	-62.77
1563.56	-62.89
1563.63	-63
1563.7	-63.12
1563.77	-63.25
1563.84	-63.37
1563.91	-63.5
1563.98	-63.63
1564.05	-63.71
1564.12	-63.91
1564.19	-64
1564.26	-64.11
1564.33	-64.39
1564.4	-64.41
1564.47	-64.58
1564.54	-64.78
1564.61	-64.96
1564.68	-65.09
1564.75	-65.26
1564.82	-65.48
1564.89	-65.59
1564.96	-65.68
1565.03	-65.96
1565.1	-66.04
1565.17	-66.3
1565.24	-66.36
1565.31	-66.55
1565.38	-66.75
1565.45	-66.93
1565.52	-67.05
1565.59	-67.29
1565.66	-67.34
1565.73	-67.7
1565.8	-67.69
1565.87	-67.94
1565.94	-68.01
1566.01	-68.4
1566.08	-68.38
1566.15	-68.63
1566.22	-68.79
1566.29	-68.89
1566.36	-69.03
1566.43	-68.96
1566.5	-69.45
1566.57	-69.39
1566.64	-69.87
1566.71	-69.84
1566.78	-69.88
1566.85	-70.39
1566.92	-70.31
1566.99	-70.58
1567.06	-70.86
1567.13	-70.96
1567.2	-71.12
1567.27	-71.13
1567.34	-71.12
1567.41	-71.21
1567.48	-71.53
1567.55	-71.29
1567.62	-71.66
1567.69	-71.72
1567.76	-71.72
1567.83	-72.06
1567.9	-72.35
1567.97	-72.39
1568.04	-72.25
1568.11	-72.46
1568.18	-72.37
1568.25	-72.79
1568.32	-72.56
1568.39	-72.71
1568.46	-73.04
1568.53	-73.16
1568.6	-73.44
1568.67	-73.27
1568.74	-73.17
1568.81	-73.18
1568.88	-73.36
1568.95	-73.41
1569.02	-73.41
1569.09	-73.36
1569.16	-73.26
1569.23	-73.12
1569.3	-73.75
1569.37	-73.5
1569.44	-73.66
1569.51	-73.84
1569.58	-73.58
1569.65	-74.34
1569.72	-73.79
1569.79	-73.87
1569.86	-73.8
1569.93	-73.73
1570	-74.54
1570.07	-74.43
1570.14	-74.3
1570.21	-73.67
1570.28	-73.9
1570.35	-74.66
1570.42	-74.1
1570.49	-74.57
1570.56	-74.3
1570.63	-73.82
1570.7	-74.69
1570.77	-74.7
1570.84	-74.28
1570.91	-74.15
1570.98	-74.26
1571.05	-74.45
1571.12	-74.73
1571.19	-74.68
1571.26	-74.41
1571.33	-74.42
1571.4	-75.07
1571.47	-74.77
1571.54	-75.11
1571.61	-74.88
1571.68	-74.7
1571.75	-74.94
1571.82	-74.43
1571.89	-74.03
1571.96	-74.74
1572.03	-74.66
1572.1	-74.28
1572.17	-74.33
1572.24	-74.52
1572.31	-74.95
1572.38	-74.57
1572.45	-75.01
1572.52	-75.35
1572.59	-74.7
1572.66	-75.13
1572.73	-75.55
1572.8	-74.48
1572.87	-75.4
1572.94	-75.32
1573.01	-75.09
1573.08	-74.51
1573.15	-74.72
1573.22	-74.95
1573.29	-75.16
1573.36	-74.44
1573.43	-74.96
1573.5	-75.06
1573.57	-75.48
1573.64	-74.88
1573.71	-74.54
1573.78	-75.47
1573.85	-75.38
1573.92	-74.69
1573.99	-75.18
1574.06	-75.8
1574.13	-75.07
1574.2	-74.52
1574.27	-74.73
1574.34	-75.03
1574.41	-74.71
1574.48	-74.94
1574.55	-75.6
1574.62	-75.13
1574.69	-75.49
1574.76	-74.31
1574.83	-74.99
1574.9	-74.65
1574.97	-75.37
1575.04	-74.84
1575.11	-74.78
1575.18	-74.44
1575.25	-75.6
1575.32	-75.37
1575.39	-75.08
1575.46	-74.52
1575.53	-75.57
1575.6	-74.83
1575.67	-75.04
1575.74	-75.6
1575.81	-74.13
1575.88	-74.5
1575.95	-75.32
1576.02	-75.07
1576.09	-75.27
1576.16	-74.81
1576.23	-75.29
1576.3	-74.99
1576.37	-74.66
1576.44	-75.21
1576.51	-74.92
1576.58	-74.57
1576.65	-75.64
1576.72	-75.32
1576.79	-75.8
1576.86	-74.6
1576.93	-74.97
1577	-75.14
1577.07	-74.99
1577.14	-74.63
1577.21	-75.19
1577.28	-75.72
1577.35	-75.04
1577.42	-75.35
1577.49	-75.08
1577.56	-75.47
1577.63	-75.15
1577.7	-75.21
1577.77	-75.12
1577.84	-74.53
1577.91	-75.65
1577.98	-75.43
1578.05	-74.97
1578.12	-74.67
1578.19	-75.46
1578.26	-74.85
1578.33	-74.91
1578.4	-74.84
1578.47	-75.11
1578.54	-75.84
1578.61	-75.48
1578.68	-75.02
1578.75	-74.42
1578.82	-75.37
1578.89	-74.87
1578.96	-75.1
1579.03	-74.68
1579.1	-74.45
1579.17	-75.31
1579.24	-74.92
1579.31	-74.29
1579.38	-75.05
1579.45	-75.08
1579.52	-74.5
1579.59	-75.7
1579.66	-74.39
1579.73	-74.62
1579.8	-75.25
1579.87	-75.06
1579.94	-74.93
1580.01	-74.89
1580.08	-74.98
1580.15	-74.94
1580.22	-74.42
1580.29	-75.24
1580.36	-75.03
1580.43	-74.67
1580.5	-75.18
1580.57	-75.1
1580.64	-74.47
1580.71	-75.15
1580.78	-74.63
1580.85	-74.91
1580.92	-74.97
1580.99	-74.42
1581.06	-75.02
1581.13	-74.57
1581.2	-74.92
1581.27	-74.49
1581.34	-74.98
1581.41	-75.56
1581.48	-74.73
1581.55	-74.41
1581.62	-74.4
1581.69	-74.84
1581.76	-75.44
1581.83	-74.75
1581.9	-74.84
1581.97	-74.47
1582.04	-74.65
1582.11	-74.37
1582.18	-74.85
1582.25	-75.09
1582.32	-74.92
1582.39	-75.07
1582.46	-74.7
1582.53	-75.53
1582.6	-75.96
1582.67	-75.39
1582.74	-74.78
1582.81	-74.19
1582.88	-75.21
1582.95	-75.03
1583.02	-75.53
1583.09	-75.41
1583.16	-75.2
1583.23	-75.45
1583.3	-75.49
1583.37	-74.83
1583.44	-74.48
1583.51	-75.37
1583.58	-74.61
1583.65	-75.29
1583.72	-74.6
1583.79	-74.57
1583.86	-74.81
1583.93	-74.72
1584	-75.74
1584.07	-75.25
1584.14	-74.57
1584.21	-75.04
1584.28	-74.46
1584.35	-74.86
1584.42	-74.8
1584.49	-74.95
1584.56	-74.37
1584.63	-74.6
1584.7	-75.1
1584.77	-74.59
1584.84	-74.9
1584.91	-74.8
1584.98	-75
1585.05	-74.6
1585.12	-75.14
1585.19	-74.31
1585.26	-74.9
1585.33	-74.6
1585.4	-74.65
1585.47	-74.5
1585.54	-74.86
1585.61	-74.6
1585.68	-74.85
1585.75	-74.93
1585.82	-74.82
1585.89	-74.32
1585.96	-74.31
1586.03	-74.48
1586.1	-74.4
1586.17	-74.86
1586.24	-75.04
1586.31	-74.43
1586.38	-74.56
1586.45	-75.15
1586.52	-75.24
1586.59	-75.07
1586.66	-74.64
1586.73	-74.7
1586.8	-74.28
1586.87	-74.87
1586.94	-75.03
1587.01	-75.28
1587.08	-75.01
1587.15	-74.44
1587.22	-74.06
1587.29	-75.35
1587.36	-74.87
1587.43	-74.52
1587.5	-74.52
1587.57	-74.93
1587.64	-74.42
1587.71	-75.25
1587.78	-74.84
1587.85	-75.03
1587.92	-74.48
1587.99	-74.38
1588.06	-75.03
1588.13	-74.44
1588.2	-74.92
1588.27	-74.52
1588.34	-75.27
1588.41	-74.73
1588.48	-74.77
1588.55	-74.85
1588.62	-74.4
1588.69	-74.92
1588.76	-74.55
1588.83	-75.79
1588.9	-75.01
1588.97	-75.26
1589.04	-75.06
1589.11	-74.74
1589.18	-75.19
1589.25	-74.8
1589.32	-74.79
1589.39	-74.72
1589.46	-74.74
1589.53	-75.41
1589.6	-75.06
1589.67	-75.18
1589.74	-74.53
1589.81	-75.18
1589.88	-75.38
1589.95	-75.06
1590.02	-75.24
1590.09	-75.17
1590.16	-75.19
1590.23	-75.42
1590.3	-74.98
1590.37	-74.9
1590.44	-74.47
1590.51	-75.3
1590.58	-75.23
1590.65	-74.9
1590.72	-75.19
1590.79	-75.4
1590.86	-75.06
1590.93	-74.93
1591	-75.29
